Folder: fred2plot/Test_XRD/03_Sample 3_XRD001/baseline

Note: README.md
# FRED2Plot
FRamework for Experimental Data to Plot (FRED2Plot)

## Description
The framework for experimental data to plot (FRED2Plot), is designed to automatically process XRD, PDF, NMR, Raman, FT-IR & electrochemical Data and, if wanted, uploads them to Kadi4mat.

## Visuals
Depending on what you are making, it can be a good idea to include screenshots or even a video (you'll frequently see GIFs rather than actual videos). Tools like ttygif can help, but check out Asciinema for a more sophisticated method.

## Installation
All depending packages, needed to run those python scripts, are collected in the requirements.txt. To install them automatically just run the following command in your command line interface. 
Pip and Python (preferably pip3/Python3) has to be installed beforehand!

```
cd fred2plot
pip3 install -r requirements.txt
```

## Usage
Use examples liberally, and show the expected output if you can. It's helpful to have inline the smallest example of usage that you can demonstrate, while providing links to more sophisticated examples if they are too long to reasonably include in the README.

## Roadmap
- Integration of a UI made with TKinter
- Integration of all scripts into this UI
- Integration of Kadi4mat
- Integration of users (Kadi4mat)
- Integration of user collections and linking (Kadi4mat)

## Contributing
State if you are open to contributions and what your requirements are for accepting them.
For people who want to make changes to your project, it's helpful to have some documentation on how to get started. Perhaps there is a script that they should run or some environment variables that they need to set. Make these steps explicit. These instructions could also be useful to your future self.
You can also document commands to lint the code or run tests. These steps help to ensure high code quality and reduce the likelihood that the changes inadvertently break something. Having instructions for running tests is especially helpful if it requires external setup, such as starting a Selenium server for testing in a browser.

## Authors and acknowledgment
Main author: Adam Reupert

Thanks to [Stack Overflow](https://stackoverflow.com/). It helped me solving problems I even didn't know i had.

## License
[CC BY-NC](https://creativecommons.org/licenses/by-nc/4.0/legalcode) is applied for this project meaning you are free to share and adapt the material under the following terms:
- Attribution — You must give appropriate credit by referencing to this [project](https://gitlab.com/Sumada/fred2plot), provide a link to the [license](https://creativecommons.org/licenses/by-nc/4.0/legalcode), and indicate if changes were made. 
- NonCommercial — You may not use the material for commercial purposes. 

## Project status
This project is still in development!
***

File: 03_Sample 3_XRD001_basecorr.csv
4.5;255;264.252;-9.25193
4.695;280;266.541;13.4593
4.89;300;268.775;31.2251
5.085;320;270.875;49.1248
5.28;379;272.762;106.238
5.475;424;274.356;149.644
5.67;468;275.583;192.417
5.865;480;276.37;203.63
6.06;607;276.652;330.348
6.255;704;276.367;427.633
6.45;813;275.468;537.532
6.645;970;273.914;696.086
6.84;1172;271.684;900.316
7.035;1352;268.775;1083.22
7.23;1206;265.21;940.79
7.425;818;261.04;556.96
7.62;633;256.344;376.656
7.815;494;251.218;242.782
8.01;386;245.767;140.233
8.205;315;240.107;74.8931
8.4;268;234.354;33.6464
8.595;259;228.627;30.3732
8.79;222;223.047;-1.04723
8.985;231;217.734;13.2662
9.18;234;212.784;21.2158
9.375;222;208.276;13.7243
9.57;200;204.254;-4.25398
9.765;212;200.731;11.2692
9.96;245;197.687;47.3127
10.155;207;195.099;11.9013
10.35;226;192.941;33.0587
10.545;227;191.192;35.8077
10.74;213;189.83;23.1703
10.935;214;188.832;25.1677
11.13;223;188.18;34.8197
11.325;198;187.855;10.1455
11.52;219;187.837;31.1629
11.715;225;188.111;36.8888
11.91;258;188.661;69.3393
12.105;234;189.471;44.5292
12.3;249;190.528;58.4722
12.495;216;191.819;24.1808
12.69;238;193.334;44.666
12.885;287;195.062;91.9376
13.08;281;196.997;84.0032
13.275;289;199.132;89.8682
13.47;303;201.464;101.536
13.665;306;203.994;102.006
13.86;335;206.724;128.276
14.055;288;209.659;78.3414
14.25;292;212.806;79.1935
14.445;231;216.178;14.8215
14.64;241;219.788;21.2122
14.835;238;223.649;14.3512
15.03;241;227.775;13.2252
15.225;227;232.166;-5.16563
15.42;265;236.805;28.1949
15.615;291;241.647;49.3527
15.81;461;246.623;214.377
16.005;612;251.663;360.337
16.2;329;256.705;72.2948
16.395;333;261.696;71.3045
16.59;384;266.582;117.418
16.785;370;271.317;98.6828
16.98;394;275.854;118.146
17.175;379;280.152;98.8484
17.37;371;284.169;86.8312
17.565;363;287.869;75.1308
17.76;383;291.218;91.7818
17.955;403;294.184;108.816
18.15;381;296.738;84.2621
18.345;389;298.853;90.1473
18.54;445;300.505;144.495
18.735;420;301.673;118.327
18.93;982;302.341;679.659
19.125;521;302.495;218.505
19.32;423;302.139;120.861
19.515;391;301.284;89.7157
19.71;392;299.946;92.0544
19.905;394;298.142;95.8584
20.1;601;295.893;305.107
20.295;496;293.227;202.773
20.49;425;290.172;134.828
20.685;396;286.767;109.233
20.88;372;283.053;88.9468
21.075;355;279.075;75.9251
21.27;360;274.879;85.1211
21.465;326;270.513;55.4866
21.66;365;266.029;98.9711
21.855;306;261.477;44.5227
22.05;296;256.913;39.0873
22.245;282;252.39;29.6095
22.44;272;247.967;24.0331
22.635;286;243.698;42.3021
22.83;253;239.633;13.3666
23.025;230;235.812;-5.81187
23.22;241;232.256;8.74389
23.415;257;228.962;28.0381
23.61;241;225.913;15.0869
23.805;260;223.085;36.9148
24;252;220.453;31.547
24.195;257;217.991;39.009
24.39;305;215.668;89.3315
24.585;338;213.454;124.546
24.78;356;211.318;144.682
24.975;292;209.233;82.7665
25.17;253;207.178;45.8222
25.365;263;205.131;57.8694
25.56;293;203.073;89.9267
25.755;280;200.989;79.0113
25.95;266;198.862;67.1381
26.145;272;196.68;75.3198
26.34;290;194.434;95.5662
26.535;278;192.115;85.8845
26.73;252;189.72;62.2796
26.925;289;187.246;101.754
27.12;285;184.693;100.307
27.315;281;182.062;98.9376
27.51;268;179.362;88.6382
27.705;262;176.599;85.4006
27.9;246;173.786;72.2137
28.095;218;170.936;47.0638
28.29;209;168.065;40.9353
28.485;209;165.189;43.811
28.68;205;162.328;42.6724
28.875;164;159.5;4.49971
29.07;215;156.728;58.2723
29.265;184;154.032;29.9682
29.46;193;151.436;41.5639
29.655;175;148.965;26.0351
29.85;182;146.644;35.3561
30.045;174;144.499;29.501
30.24;182;142.557;39.4428
30.435;133;140.843;-7.84262
30.63;148;139.369;8.63126
30.825;167;138.136;28.8638
31.02;166;137.136;28.8638
31.215;160;136.353;23.6465
31.41;159;135.77;23.2298
31.605;171;135.369;35.6314
31.8;154;135.132;18.8685
31.995;175;135.043;39.9574
32.19;154;135.086;18.9138
32.385;168;135.248;32.7523
32.58;164;135.514;28.4863
32.775;182;135.872;46.1283
32.97;159;136.31;22.6899
33.165;273;136.818;136.182
33.36;218;137.388;80.6123
33.555;166;138.012;27.9877
33.75;153;138.689;14.3111
33.945;147;139.415;7.585
34.14;149;140.189;8.81117
34.335;170;141.009;28.9909
34.53;175;141.875;33.1249
34.725;151;142.783;8.21662
34.92;160;143.727;16.2729
35.115;160;144.697;15.3033
35.31;161;145.677;15.3231
35.505;174;146.651;27.3486
35.7;190;147.605;42.3953
35.895;174;148.522;25.4785
36.09;180;149.388;30.6121
36.285;200;150.19;49.8097
36.48;189;150.916;38.0835
36.675;189;151.555;37.4445
36.87;197;152.097;44.9028
37.065;174;152.533;21.4674
37.26;182;152.854;29.1465
37.455;183;153.053;29.9471
37.65;186;153.125;32.8754
37.845;188;153.063;34.9366
38.04;187;152.865;34.1349
38.235;208;152.527;55.4733
38.43;212;152.046;59.9537
38.625;207;151.423;55.5768
38.82;190;150.659;39.341
39.015;206;149.757;56.2432
39.21;179;148.721;30.2789
39.405;171;147.558;23.442
39.6;196;146.275;49.7254
39.795;165;144.879;20.1211
39.99;180;143.38;36.62
40.185;173;141.788;31.2124
40.38;182;140.112;41.8877
40.575;158;138.365;19.635
40.77;185;136.558;48.4423
40.965;134;134.703;-0.703001
41.16;142;132.814;9.18577
41.355;162;130.905;31.0955
41.55;158;128.987;29.0126
41.745;157;127.077;29.923
41.94;153;125.188;27.8118
42.135;125;123.337;1.66344
42.33;118;121.537;-3.53724
42.525;138;119.797;18.203
42.72;145;118.111;26.8889
42.915;140;116.473;23.5265
43.11;140;114.879;25.121
43.305;158;113.323;44.6769
43.5;176;111.802;64.1979
43.695;158;110.314;47.6858
43.89;144;108.858;35.1415
44.085;141;107.435;33.5647
44.28;137;106.046;30.9543
44.475;128;104.692;23.3083
44.67;116;103.376;12.6238
44.865;118;102.103;15.8972
45.06;134;100.876;33.1242
45.255;131;99.7004;31.2996
45.45;127;98.5822;28.4178
45.645;109;97.528;11.472
45.84;128;96.5449;31.4551
46.035;106;95.6408;10.3592
46.23;102;94.824;7.17601
46.425;118;94.0949;23.9051
46.62;108;93.4455;14.5545
46.815;115;92.8679;22.1321
47.01;110;92.3549;17.6451
47.205;105;91.8997;13.1003
47.4;103;91.496;11.504
47.595;119;91.1377;27.8623
47.79;106;90.8196;15.1804
47.985;106;90.5365;15.4635
48.18;112;90.2844;21.7156
48.375;110;90.0596;19.9404
48.57;112;89.8589;22.1411
48.765;114;89.6796;24.3204
48.96;99;89.5195;9.48052
49.155;123;89.3767;33.6233
49.35;115;89.2501;25.7499
49.545;108;89.139;18.861
49.74;116;89.043;26.957
49.935;112;88.9618;23.0382
50.13;98;88.8953;9.10467
50.325;93;88.8439;4.15615
50.52;113;88.8066;24.1934
50.715;105;88.7827;16.2173
50.91;117;88.7705;28.2295
51.105;120;88.769;31.231
51.3;88;88.7753;-0.775287
51.495;129;88.7836;40.2164
51.69;129;88.7871;40.2129
51.885;129;88.7797;40.2203
52.08;115;88.7561;26.2439
52.275;120;88.7122;31.2878
52.47;115;88.6448;26.3552
52.665;114;88.5513;25.4487
52.86;121;88.4297;32.5703
53.055;104;88.2787;15.7213
53.25;100;88.0977;11.9023
53.445;103;87.8869;15.1131
53.64;118;87.6472;30.3528
53.835;115;87.3801;27.6199
54.03;90;87.0878;2.91215
54.225;123;86.7733;36.2267
54.42;111;86.4402;24.5598
54.615;112;86.0929;25.9071
54.81;106;85.7365;20.2635
55.005;131;85.3758;45.6242
55.2;106;85.0112;20.9888
55.395;101;84.6416;16.3584
55.59;109;84.2668;24.7332
55.785;92;83.8871;8.11289
55.98;88;83.5035;4.49653
56.175;99;83.1173;15.8827
56.37;89;82.7298;6.27016
56.565;106;82.3426;23.6574
56.76;86;81.9577;4.04233
56.955;95;81.5774;13.4226
57.15;100;81.2036;18.7964
57.345;98;80.8365;17.1635
57.54;97;80.4763;16.5237
57.735;98;80.1238;17.8762
57.93;99;79.7801;19.2199
58.125;103;79.447;23.553
58.32;103;79.1267;23.8733
58.515;105;78.8217;26.1783
58.71;83;78.5318;4.46815
58.905;120;78.2543;41.7457
59.1;94;77.9866;16.0134
59.295;101;77.7269;23.2731
59.49;94;77.4737;16.5263
59.685;105;77.2264;27.7736
59.88;94;76.9846;17.0154
60.075;91;76.747;14.253
60.27;101;76.5118;24.4882
60.465;92;76.2779;15.7221
60.66;82;76.0443;5.95566
60.765;96;75.9186;20.0814