Folder: fred2plot/Test_XRD/0_rawdata

Note: README.md
# FRED2Plot
FRamework for Experimental Data to Plot (FRED2Plot)

## Description
The framework for experimental data to plot (FRED2Plot), is designed to automatically process XRD, PDF, NMR, Raman, FT-IR & electrochemical Data and, if wanted, uploads them to Kadi4mat.

## Visuals
Depending on what you are making, it can be a good idea to include screenshots or even a video (you'll frequently see GIFs rather than actual videos). Tools like ttygif can help, but check out Asciinema for a more sophisticated method.

## Installation
All depending packages, needed to run those python scripts, are collected in the requirements.txt. To install them automatically just run the following command in your command line interface. 
Pip and Python (preferably pip3/Python3) has to be installed beforehand!

```
cd fred2plot
pip3 install -r requirements.txt
```

## Usage
Use examples liberally, and show the expected output if you can. It's helpful to have inline the smallest example of usage that you can demonstrate, while providing links to more sophisticated examples if they are too long to reasonably include in the README.

## Roadmap
- Integration of a UI made with TKinter
- Integration of all scripts into this UI
- Integration of Kadi4mat
- Integration of users (Kadi4mat)
- Integration of user collections and linking (Kadi4mat)

## Contributing
State if you are open to contributions and what your requirements are for accepting them.
For people who want to make changes to your project, it's helpful to have some documentation on how to get started. Perhaps there is a script that they should run or some environment variables that they need to set. Make these steps explicit. These instructions could also be useful to your future self.
You can also document commands to lint the code or run tests. These steps help to ensure high code quality and reduce the likelihood that the changes inadvertently break something. Having instructions for running tests is especially helpful if it requires external setup, such as starting a Selenium server for testing in a browser.

## Authors and acknowledgment
Main author: Adam Reupert

Thanks to [Stack Overflow](https://stackoverflow.com/). It helped me solving problems I even didn't know i had.

## License
[CC BY-NC](https://creativecommons.org/licenses/by-nc/4.0/legalcode) is applied for this project meaning you are free to share and adapt the material under the following terms:
- Attribution — You must give appropriate credit by referencing to this [project](https://gitlab.com/Sumada/fred2plot), provide a link to the [license](https://creativecommons.org/licenses/by-nc/4.0/legalcode), and indicate if changes were made. 
- NonCommercial — You may not use the material for commercial purposes. 

## Project status
This project is still in development!
***

File: 03_Sample 3_XRD001.xy
   4.5000      255
   4.6950      280
   4.8900      300
   5.0850      320
   5.2800      379
   5.4750      424
   5.6700      468
   5.8650      480
   6.0600      607
   6.2550      704
   6.4500      813
   6.6450      970
   6.8400     1172
   7.0350     1352
   7.2300     1206
   7.4250      818
   7.6200      633
   7.8150      494
   8.0100      386
   8.2050      315
   8.4000      268
   8.5950      259
   8.7900      222
   8.9850      231
   9.1800      234
   9.3750      222
   9.5700      200
   9.7650      212
   9.9600      245
  10.1550      207
  10.3500      226
  10.5450      227
  10.7400      213
  10.9350      214
  11.1300      223
  11.3250      198
  11.5200      219
  11.7150      225
  11.9100      258
  12.1050      234
  12.3000      249
  12.4950      216
  12.6900      238
  12.8850      287
  13.0800      281
  13.2750      289
  13.4700      303
  13.6650      306
  13.8600      335
  14.0550      288
  14.2500      292
  14.4450      231
  14.6400      241
  14.8350      238
  15.0300      241
  15.2250      227
  15.4200      265
  15.6150      291
  15.8100      461
  16.0050      612
  16.2000      329
  16.3950      333
  16.5900      384
  16.7850      370
  16.9800      394
  17.1750      379
  17.3700      371
  17.5650      363
  17.7600      383
  17.9550      403
  18.1500      381
  18.3450      389
  18.5400      445
  18.7350      420
  18.9300      982
  19.1250      521
  19.3200      423
  19.5150      391
  19.7100      392
  19.9050      394
  20.1000      601
  20.2950      496
  20.4900      425
  20.6850      396
  20.8800      372
  21.0750      355
  21.2700      360
  21.4650      326
  21.6600      365
  21.8550      306
  22.0500      296
  22.2450      282
  22.4400      272
  22.6350      286
  22.8300      253
  23.0250      230
  23.2200      241
  23.4150      257
  23.6100      241
  23.8050      260
  24.0000      252
  24.1950      257
  24.3900      305
  24.5850      338
  24.7800      356
  24.9750      292
  25.1700      253
  25.3650      263
  25.5600      293
  25.7550      280
  25.9500      266
  26.1450      272
  26.3400      290
  26.5350      278
  26.7300      252
  26.9250      289
  27.1200      285
  27.3150      281
  27.5100      268
  27.7050      262
  27.9000      246
  28.0950      218
  28.2900      209
  28.4850      209
  28.6800      205
  28.8750      164
  29.0700      215
  29.2650      184
  29.4600      193
  29.6550      175
  29.8500      182
  30.0450      174
  30.2400      182
  30.4350      133
  30.6300      148
  30.8250      167
  31.0200      166
  31.2150      160
  31.4100      159
  31.6050      171
  31.8000      154
  31.9950      175
  32.1900      154
  32.3850      168
  32.5800      164
  32.7750      182
  32.9700      159
  33.1650      273
  33.3600      218
  33.5550      166
  33.7500      153
  33.9450      147
  34.1400      149
  34.3350      170
  34.5300      175
  34.7250      151
  34.9200      160
  35.1150      160
  35.3100      161
  35.5050      174
  35.7000      190
  35.8950      174
  36.0900      180
  36.2850      200
  36.4800      189
  36.6750      189
  36.8700      197
  37.0650      174
  37.2600      182
  37.4550      183
  37.6500      186
  37.8450      188
  38.0400      187
  38.2350      208
  38.4300      212
  38.6250      207
  38.8200      190
  39.0150      206
  39.2100      179
  39.4050      171
  39.6000      196
  39.7950      165
  39.9900      180
  40.1850      173
  40.3800      182
  40.5750      158
  40.7700      185
  40.9650      134
  41.1600      142
  41.3550      162
  41.5500      158
  41.7450      157
  41.9400      153
  42.1350      125
  42.3300      118
  42.5250      138
  42.7200      145
  42.9150      140
  43.1100      140
  43.3050      158
  43.5000      176
  43.6950      158
  43.8900      144
  44.0850      141
  44.2800      137
  44.4750      128
  44.6700      116
  44.8650      118
  45.0600      134
  45.2550      131
  45.4500      127
  45.6450      109
  45.8400      128
  46.0350      106
  46.2300      102
  46.4250      118
  46.6200      108
  46.8150      115
  47.0100      110
  47.2050      105
  47.4000      103
  47.5950      119
  47.7900      106
  47.9850      106
  48.1800      112
  48.3750      110
  48.5700      112
  48.7650      114
  48.9600       99
  49.1550      123
  49.3500      115
  49.5450      108
  49.7400      116
  49.9350      112
  50.1300       98
  50.3250       93
  50.5200      113
  50.7150      105
  50.9100      117
  51.1050      120
  51.3000       88
  51.4950      129
  51.6900      129
  51.8850      129
  52.0800      115
  52.2750      120
  52.4700      115
  52.6650      114
  52.8600      121
  53.0550      104
  53.2500      100
  53.4450      103
  53.6400      118
  53.8350      115
  54.0300       90
  54.2250      123
  54.4200      111
  54.6150      112
  54.8100      106
  55.0050      131
  55.2000      106
  55.3950      101
  55.5900      109
  55.7850       92
  55.9800       88
  56.1750       99
  56.3700       89
  56.5650      106
  56.7600       86
  56.9550       95
  57.1500      100
  57.3450       98
  57.5400       97
  57.7350       98
  57.9300       99
  58.1250      103
  58.3200      103
  58.5150      105
  58.7100       83
  58.9050      120
  59.1000       94
  59.2950      101
  59.4900       94
  59.6850      105
  59.8800       94
  60.0750       91
  60.2700      101
  60.4650       92
  60.6600       82
  60.7650       96