Folder: fred2plot/XRD/Test_XRD/0_rawdata

Note: README.md
# FRED2Plot
FRamework for Experimental Data to Plot (FRED2Plot)

## Description
The framework for experimental data to plot (FRED2Plot), is designed to automatically process XRD, PDF, NMR, Raman, FT-IR & electrochemical Data and, if wanted, uploads them to Kadi4mat.

## Visuals
Depending on what you are making, it can be a good idea to include screenshots or even a video (you'll frequently see GIFs rather than actual videos). Tools like ttygif can help, but check out Asciinema for a more sophisticated method.

## Installation
All depending packages, needed to run those python scripts, are collected in the requirements.txt. To install them automatically just run the following command in your command line interface. 
Pip and Python (preferably pip3/Python3) has to be installed beforehand!

```
cd fred2plot
pip3 install -r requirements.txt
```

## Usage
Use examples liberally, and show the expected output if you can. It's helpful to have inline the smallest example of usage that you can demonstrate, while providing links to more sophisticated examples if they are too long to reasonably include in the README.

## Roadmap
- Integration of a UI made with TKinter
- Integration of all scripts into this UI
- Integration of Kadi4mat
- Integration of users (Kadi4mat)
- Integration of user collections and linking (Kadi4mat)

## Contributing
State if you are open to contributions and what your requirements are for accepting them.
For people who want to make changes to your project, it's helpful to have some documentation on how to get started. Perhaps there is a script that they should run or some environment variables that they need to set. Make these steps explicit. These instructions could also be useful to your future self.
You can also document commands to lint the code or run tests. These steps help to ensure high code quality and reduce the likelihood that the changes inadvertently break something. Having instructions for running tests is especially helpful if it requires external setup, such as starting a Selenium server for testing in a browser.

## Authors and acknowledgment
Main author: Adam Reupert

Thanks to [Stack Overflow](https://stackoverflow.com/). It helped me solving problems I even didn't know i had.

## License
[CC BY-NC](https://creativecommons.org/licenses/by-nc/4.0/legalcode) is applied for this project meaning you are free to share and adapt the material under the following terms:
- Attribution — You must give appropriate credit by referencing to this [project](https://gitlab.com/Sumada/fred2plot), provide a link to the [license](https://creativecommons.org/licenses/by-nc/4.0/legalcode), and indicate if changes were made. 
- NonCommercial — You may not use the material for commercial purposes. 

## Project status
This project is still in development!
***

File: 02_Sample 2_XRD001.xy
   4.5000      162
   4.6950      155
   4.8900      161
   5.0850      161
   5.2800      166
   5.4750      172
   5.6700      155
   5.8650      174
   6.0600      166
   6.2550      214
   6.4500      232
   6.6450      226
   6.8400      454
   7.0350     1225
   7.2300     5688
   7.4250      398
   7.6200      889
   7.8150     3246
   8.0100      216
   8.2050      172
   8.4000      167
   8.5950      138
   8.7900      155
   8.9850      161
   9.1800      152
   9.3750      139
   9.5700      153
   9.7650      166
   9.9600      248
  10.1550      291
  10.3500      282
  10.5450      184
  10.7400      278
  10.9350      217
  11.1300      171
  11.3250      171
  11.5200      151
  11.7150      148
  11.9100      162
  12.1050      178
  12.3000      176
  12.4950      175
  12.6900      307
  12.8850      523
  13.0800      178
  13.2750      234
  13.4700      401
  13.6650      778
  13.8600      229
  14.0550      164
  14.2500      203
  14.4450      239
  14.6400      153
  14.8350      178
  15.0300      656
  15.2250      211
  15.4200      374
  15.6150      226
  15.8100      490
  16.0050      524
  16.2000      224
  16.3950      641
  16.5900      883
  16.7850      236
  16.9800      274
  17.1750      256
  17.3700      191
  17.5650      176
  17.7600      230
  17.9550      203
  18.1500      399
  18.3450     1113
  18.5400      327
  18.7350      468
  18.9300      712
  19.1250      247
  19.3200      197
  19.5150      219
  19.7100      287
  19.9050     1332
  20.1000      571
  20.2950      407
  20.4900      374
  20.6850      295
  20.8800      605
  21.0750      316
  21.2700      480
  21.4650      501
  21.6600      305
  21.8550      375
  22.0500      238
  22.2450      137
  22.4400      126
  22.6350      116
  22.8300      135
  23.0250      132
  23.2200      147
  23.4150      159
  23.6100      148
  23.8050      191
  24.0000      370
  24.1950      243
  24.3900      255
  24.5850      800
  24.7800      352
  24.9750      348
  25.1700      213
  25.3650      195
  25.5600      246
  25.7550      327
  25.9500      248
  26.1450      178
  26.3400      239
  26.5350      252
  26.7300      300
  26.9250      315
  27.1200      289
  27.3150      334
  27.5100      386
  27.7050      384
  27.9000      192
  28.0950      172
  28.2900      193
  28.4850      176
  28.6800      183
  28.8750      146
  29.0700      168
  29.2650      140
  29.4600      126
  29.6550      136
  29.8500      109
  30.0450      133
  30.2400      138
  30.4350      220
  30.6300      156
  30.8250      133
  31.0200      191
  31.2150      172
  31.4100      153
  31.6050      150
  31.8000      167
  31.9950      211
  32.1900      142
  32.3850      186
  32.5800      149
  32.7750      137
  32.9700      144
  33.1650      249
  33.3600      162
  33.5550      181
  33.7500      146
  33.9450      154
  34.1400      163
  34.3350      164
  34.5300      183
  34.7250      146
  34.9200      123
  35.1150      132
  35.3100      200
  35.5050      167
  35.7000      149
  35.8950      191
  36.0900      189
  36.2850      279
  36.4800      280
  36.6750      187
  36.8700      158
  37.0650      170
  37.2600      185
  37.4550      173
  37.6500      186
  37.8450      186
  38.0400      178
  38.2350      207
  38.4300      174
  38.6250      152
  38.8200      179
  39.0150      206
  39.2100      143
  39.4050      125
  39.6000      149
  39.7950      160
  39.9900      147
  40.1850      140
  40.3800      159
  40.5750      164
  40.7700      150
  40.9650      144
  41.1600      140
  41.3550      181
  41.5500      156
  41.7450      137
  41.9400      152
  42.1350      150
  42.3300      182
  42.5250      137
  42.7200      145
  42.9150      189
  43.1100      139
  43.3050      153
  43.5000      176
  43.6950      128
  43.8900      121
  44.0850      130
  44.2800      121
  44.4750      155
  44.6700      139
  44.8650      100
  45.0600      123
  45.2550      125
  45.4500      138
  45.6450      120
  45.8400      107
  46.0350      121
  46.2300       95
  46.4250       97
  46.6200       78
  46.8150       87
  47.0100      112
  47.2050      102
  47.4000      117
  47.5950      101
  47.7900       97
  47.9850      110
  48.1800      118
  48.3750      101
  48.5700      102
  48.7650       81
  48.9600       94
  49.1550      122
  49.3500       99
  49.5450      106
  49.7400      103
  49.9350      106
  50.1300      124
  50.3250      108
  50.5200       81
  50.7150       97
  50.9100      117
  51.1050      110
  51.3000      111
  51.4950       93
  51.6900      120
  51.8850      124
  52.0800      101
  52.2750       98
  52.4700      134
  52.6650      110
  52.8600       94
  53.0550      114
  53.2500      112
  53.4450      107
  53.6400      115
  53.8350      110
  54.0300      127
  54.2250      103
  54.4200       84
  54.6150       83
  54.8100       99
  55.0050      100
  55.2000      103
  55.3950       91
  55.5900      106
  55.7850       94
  55.9800      122
  56.1750      109
  56.3700      103
  56.5650      112
  56.7600       87
  56.9550       93
  57.1500      113
  57.3450      102
  57.5400       98
  57.7350      104
  57.9300       88
  58.1250       89
  58.3200       95
  58.5150       85
  58.7100       91
  58.9050       96
  59.1000      104
  59.2950      103
  59.4900       95
  59.6850       96
  59.8800       89
  60.0750      100
  60.2700       81
  60.4650       78
  60.6600       85
  60.7650       88