Folder: fred2plot/Methods/XRD_test/0_xy

Note: README.md
# FRED2Plot
FRamework for Experimental Data to Plot (FRED2Plot)

## Description
The framework for experimental data to plot (FRED2Plot), is designed to automatically process XRD, PDF, NMR, Raman, FT-IR & electrochemical Data and, if wanted, uploads them to Kadi4mat.

## Visuals
Depending on what you are making, it can be a good idea to include screenshots or even a video (you'll frequently see GIFs rather than actual videos). Tools like ttygif can help, but check out Asciinema for a more sophisticated method.

## Installation
All depending packages, needed to run those python scripts, are collected in the requirements.txt. To install them automatically just run the following command in your command line interface. 
Pip and Python (preferably pip3/Python3) has to be installed beforehand!

```
cd fred2plot
pip3 install -r requirements.txt
```

## Usage
Use examples liberally, and show the expected output if you can. It's helpful to have inline the smallest example of usage that you can demonstrate, while providing links to more sophisticated examples if they are too long to reasonably include in the README.

## Roadmap
- Integration of a UI made with TKinter
- Integration of all scripts into this UI
- Integration of Kadi4mat
- Integration of users (Kadi4mat)
- Integration of user collections and linking (Kadi4mat)

## Contributing
State if you are open to contributions and what your requirements are for accepting them.
For people who want to make changes to your project, it's helpful to have some documentation on how to get started. Perhaps there is a script that they should run or some environment variables that they need to set. Make these steps explicit. These instructions could also be useful to your future self.
You can also document commands to lint the code or run tests. These steps help to ensure high code quality and reduce the likelihood that the changes inadvertently break something. Having instructions for running tests is especially helpful if it requires external setup, such as starting a Selenium server for testing in a browser.

## Authors and acknowledgment
Main author: Adam Reupert

Thanks to [Stack Overflow](https://stackoverflow.com/). It helped me solving problems I even didn't know i had.

## License
[CC BY-NC](https://creativecommons.org/licenses/by-nc/4.0/legalcode) is applied for this project meaning you are free to share and adapt the material under the following terms:
- Attribution — You must give appropriate credit by referencing to this [project](https://gitlab.com/Sumada/fred2plot), provide a link to the [license](https://creativecommons.org/licenses/by-nc/4.0/legalcode), and indicate if changes were made. 
- NonCommercial — You may not use the material for commercial purposes. 

## Project status
This project is still in development!
***

File: 01_Sample 1_XRD001.xy
   4.5000      169
   4.6950      187
   4.8900      175
   5.0850      173
   5.2800      175
   5.4750      158
   5.6700      170
   5.8650      171
   6.0600      176
   6.2550      169
   6.4500      165
   6.6450      196
   6.8400      321
   7.0350     1066
   7.2300     7232
   7.4250      320
   7.6200      796
   7.8150     4072
   8.0100      241
   8.2050      166
   8.4000      164
   8.5950      176
   8.7900      160
   8.9850      150
   9.1800      184
   9.3750      181
   9.5700      166
   9.7650      188
   9.9600      249
  10.1550      331
  10.3500      270
  10.5450      191
  10.7400      314
  10.9350      204
  11.1300      174
  11.3250      179
  11.5200      154
  11.7150      150
  11.9100      161
  12.1050      193
  12.3000      185
  12.4950      188
  12.6900      355
  12.8850      675
  13.0800      197
  13.2750      238
  13.4700      442
  13.6650      866
  13.8600      191
  14.0550      174
  14.2500      204
  14.4450      233
  14.6400      136
  14.8350      187
  15.0300      769
  15.2250      179
  15.4200      471
  15.6150      236
  15.8100      523
  16.0050      486
  16.2000      184
  16.3950      738
  16.5900     1109
  16.7850      208
  16.9800      264
  17.1750      266
  17.3700      150
  17.5650      131
  17.7600      190
  17.9550      146
  18.1500      405
  18.3450     1278
  18.5400      306
  18.7350      463
  18.9300      695
  19.1250      248
  19.3200      171
  19.5150      180
  19.7100      222
  19.9050     1719
  20.1000      501
  20.2950      443
  20.4900      380
  20.6850      267
  20.8800      676
  21.0750      289
  21.2700      550
  21.4650      571
  21.6600      265
  21.8550      480
  22.0500      233
  22.2450      140
  22.4400      108
  22.6350      120
  22.8300      116
  23.0250      132
  23.2200      129
  23.4150      161
  23.6100      139
  23.8050      173
  24.0000      489
  24.1950      226
  24.3900      234
  24.5850     1083
  24.7800      347
  24.9750      402
  25.1700      186
  25.3650      187
  25.5600      244
  25.7550      313
  25.9500      247
  26.1450      187
  26.3400      224
  26.5350      213
  26.7300      321
  26.9250      303
  27.1200      264
  27.3150      309
  27.5100      352
  27.7050      449
  27.9000      171
  28.0950      188
  28.2900      201
  28.4850      208
  28.6800      198
  28.8750      135
  29.0700      203
  29.2650      135
  29.4600      129
  29.6550      128
  29.8500      126
  30.0450      126
  30.2400      120
  30.4350      252
  30.6300      195
  30.8250      116
  31.0200      209
  31.2150      192
  31.4100      182
  31.6050      133
  31.8000      170
  31.9950      216
  32.1900      156
  32.3850      197
  32.5800      134
  32.7750      121
  32.9700      155
  33.1650      241
  33.3600      195
  33.5550      170
  33.7500      166
  33.9450      115
  34.1400      160
  34.3350      186
  34.5300      182
  34.7250      163
  34.9200      111
  35.1150      127
  35.3100      182
  35.5050      172
  35.7000      169
  35.8950      160
  36.0900      207
  36.2850      257
  36.4800      348
  36.6750      181
  36.8700      166
  37.0650      163
  37.2600      197
  37.4550      174
  37.6500      159
  37.8450      182
  38.0400      170
  38.2350      226
  38.4300      177
  38.6250      161
  38.8200      218
  39.0150      181
  39.2100      141
  39.4050      142
  39.6000      178
  39.7950      164
  39.9900      137
  40.1850      155
  40.3800      147
  40.5750      171
  40.7700      183
  40.9650      154
  41.1600      126
  41.3550      152
  41.5500      190
  41.7450      165
  41.9400      159
  42.1350      167
  42.3300      184
  42.5250      136
  42.7200      135
  42.9150      217
  43.1100      130
  43.3050      178
  43.5000      141
  43.6950      162
  43.8900      142
  44.0850      139
  44.2800      123
  44.4750      149
  44.6700      138
  44.8650      104
  45.0600      119
  45.2550      112
  45.4500      133
  45.6450      126
  45.8400      101
  46.0350      109
  46.2300       87
  46.4250       89
  46.6200       82
  46.8150       93
  47.0100       91
  47.2050      106
  47.4000      126
  47.5950      101
  47.7900       92
  47.9850       97
  48.1800      102
  48.3750      102
  48.5700       75
  48.7650      102
  48.9600       96
  49.1550      108
  49.3500      112
  49.5450      102
  49.7400      104
  49.9350       89
  50.1300      111
  50.3250      124
  50.5200       91
  50.7150       93
  50.9100      101
  51.1050      108
  51.3000      105
  51.4950       93
  51.6900      102
  51.8850      134
  52.0800      131
  52.2750      116
  52.4700      129
  52.6650      113
  52.8600      100
  53.0550      130
  53.2500      107
  53.4450      110
  53.6400      102
  53.8350      112
  54.0300      120
  54.2250      113
  54.4200       89
  54.6150      111
  54.8100      111
  55.0050       84
  55.2000       82
  55.3950      111
  55.5900      106
  55.7850       95
  55.9800      121
  56.1750       93
  56.3700       93
  56.5650      112
  56.7600      107
  56.9550       98
  57.1500      105
  57.3450      119
  57.5400      111
  57.7350      106
  57.9300       96
  58.1250       98
  58.3200      105
  58.5150       88
  58.7100       87
  58.9050       85
  59.1000      113
  59.2950       92
  59.4900      105
  59.6850       82
  59.8800       78
  60.0750       75
  60.2700       92
  60.4650       86
  60.6600       78
  60.7650       82